Folder: FRDatabase/measurements

Note: measurements/Airpod L.txt
FFT	AudioTools 	v36 iPad battery  28%	15/05/2023, 19:58	USB-C to 3.5mm Headphone Jack Adapter L Mic Low Range	3E413E14-4E3E-409A-A5B7-705B65920E1E
Frequency	dB	Unweighted
19.5	52.3
19.8	52.6
20.1	52.8
20.3	53
20.6	53.3
20.9	53.5
21.2	53.8
21.6	54
21.9	54.2
22.2	54.5
22.5	54.7
22.8	54.9
23.2	55.2
23.5	55.4
23.8	55.7
24.2	55.9
24.5	56.1
24.9	56.5
25.3	56.7
25.6	57
26	57.1
26.4	57.3
26.8	57.5
27.2	57.7
27.5	57.7
28	57.9
28.4	58
28.8	58.2
29.2	58.4
29.6	58.6
30	59
30.5	59.3
30.9	59.5
31.4	59.6
31.8	59.7
32.3	59.9
32.8	60
33.2	60.1
33.7	60.3
34.2	60.5
34.7	60.6
35.2	60.8
35.7	60.9
36.2	61.1
36.8	61.3
37.3	61.6
37.9	61.8
38.4	62.1
39	62.4
39.5	62.6
40.1	62.7
40.7	62.8
41.3	62.8
41.9	63
42.5	63.2
43.1	63.4
43.7	63.5
44.4	63.6
45	63.5
45.7	63.6
46.3	63.7
47	64
47.7	64.2
48.4	64.3
49.1	64.2
49.8	64.1
50.5	64.3
51.3	64.5
52	64.6
52.8	64.7
53.5	64.8
54.3	64.8
55.1	64.8
55.9	64.9
56.7	65.1
57.5	65.2
58.4	65.4
59.2	65.6
60.1	65.7
61	65.8
61.8	65.7
62.7	65.7
63.7	65.8
64.6	65.9
65.5	66.1
66.5	66.1
67.4	66.2
68.4	66.3
69.4	66.3
70.4	66.3
71.5	66.3
72.5	66.4
73.5	66.2
74.6	66
75.7	65.9
76.8	65.9
77.9	66
79.1	66.1
80.2	66.2
81.4	66.1
82.6	66
83.8	65.8
85	65.7
86.2	65.8
87.5	66
88.7	66.2
90	66.3
91.3	66.2
92.7	66.3
94	66.4
95.4	66.2
96.8	66.2
98.2	66.2
99.6	66.4
101	66.3
103	66.2
104	66.3
106	66.4
107	66.4
109	66.3
110	66.1
112	65.9
113	65.8
115	66
117	66.1
118	66.1
120	66
122	66
124	65.7
125	65.5
127	65.5
129	65.5
131	65.4
133	65.5
135	65.5
137	65.5
139	65.2
141	65.2
143	65.2
145	65.1
147	65
149	65
151	64.9
154	64.7
156	64.3
158	64.3
160	64.3
163	64.2
165	64
168	63.7
170	63.6
172	63.8
175	63.7
177	63.6
180	63.5
183	63.6
185	63.5
188	63.4
191	63.4
194	63.4
196	62.9
199	62.8
202	62.8
205	62.7
208	62.5
211	62.6
214	62.6
217	62.4
220	62.3
224	62.2
227	61.9
230	61.9
234	62
237	62
240	61.9
244	61.9
247	62.3
251	62.4
255	62.2
258	62
262	62.5
266	62.7
270	62.6
274	62.6
278	62.7
282	62.6
286	62.4
290	62.4
294	62.3
298	62.1
303	62
307	61.8
312	61.5
316	61.4
321	61.3
325	61.3
330	61.1
335	60.9
340	60.7
345	60.5
350	60.3
355	60.3
360	60.4
365	60.4
371	60.2
376	60.1
382	59.9
387	59.9
393	60.1
398	60
404	60
410	60.2
416	60.9
422	61
428	60.9
434	60.8
441	60.9
447	60.9
454	60.8
460	60.6
467	60.2
474	60.1
481	60.2
488	60.2
495	60
502	60.1
509	60.1
517	60.2
524	60.2
532	60.1
540	59.9
547	59.8
555	59.6
563	59.6
572	59.6
580	59.7
588	59.5
597	59.3
606	59.3
614	59.3
623	59.2
632	59.1
642	59.1
651	59
660	58.9
670	58.9
680	58.9
690	58.9
700	58.9
710	59.1
720	59
731	58.9
741	59.1
752	59.2
763	59.1
774	59
785	58.9
797	59
808	59.1
820	59
832	59
844	58.9
856	58.9
869	58.7
882	58.6
894	58.5
907	58.5
921	58.4
934	58.6
948	58.8
961	58.7
975	58.7
990	58.9
1004	59
1019	59
1033	58.9
1048	58.9
1064	58.8
1079	58.9
1095	58.9
1111	58.7
1127	58.7
1143	58.7
1160	58.6
1177	58.3
1194	58.1
1211	58.1
1229	58.1
1247	57.8
1265	57.7
1283	57.6
1302	57.5
1321	57.5
1340	57.4
1360	57.5
1379	57.5
1399	57.5
1420	57.5
1440	57.3
1461	57.3
1483	57.4
1504	57.4
1526	57.3
1548	57.2
1571	57.3
1594	57.3
1617	57.4
1640	57.

Note: measurements/Airpod R.txt
FFT	AudioTools 	v36 iPad battery  27%	15/05/2023, 20:01	Internal Mic 1 Low Range	3E413E14-4E3E-409A-A5B7-705B65920E1E
Frequency	dB	Unweighted
19.5	39.7
19.8	40.1
20.1	40.2
20.3	40.4
20.6	40.6
20.9	40.7
21.2	40.9
21.6	40.9
21.9	41.1
22.2	41.2
22.5	41.4
22.8	41.5
23.2	41.9
23.5	42.1
23.8	42.4
24.2	42.7
24.5	42.9
24.9	43.3
25.3	43.5
25.6	43.8
26	43.9
26.4	44.1
26.8	44.6
27.2	44.9
27.5	45.2
28	45.7
28.4	46
28.8	46.3
29.2	46.6
29.6	46.9
30	47.5
30.5	47.8
30.9	48.2
31.4	48.5
31.8	48.6
32.3	48.8
32.8	48.8
33.2	48.8
33.7	48.7
34.2	48.6
34.7	48.5
35.2	48.6
35.7	48.7
36.2	49
36.8	49.3
37.3	49.9
37.9	50.4
38.4	50.8
39	51.1
39.5	51.3
40.1	51.5
40.7	51.6
41.3	51.7
41.9	52
42.5	52.3
43.1	52.7
43.7	53
44.4	52.9
45	52.6
45.7	52.4
46.3	52.4
47	52.6
47.7	52.8
48.4	52.9
49.1	52.7
49.8	52.6
50.5	52.4
51.3	52.5
52	52.6
52.8	52.8
53.5	53
54.3	53.1
55.1	53.3
55.9	53.7
56.7	54.1
57.5	54.3
58.4	54.4
59.2	54.1
60.1	54
61	54.2
61.8	54.5
62.7	54.7
63.7	55
64.6	55
65.5	54.9
66.5	54.7
67.4	54.8
68.4	55
69.4	55
70.4	54.8
71.5	54.9
72.5	55.5
73.5	55.9
74.6	55.8
75.7	55.6
76.8	55.7
77.9	55.8
79.1	55.4
80.2	55.1
81.4	54.9
82.6	54.9
83.8	55
85	55.3
86.2	55.7
87.5	55.5
88.7	55.2
90	55.5
91.3	55.7
92.7	55.8
94	56.3
95.4	57.2
96.8	57.2
98.2	57.1
99.6	57.2
101	57.2
103	57.1
104	56.7
106	56.7
107	56.9
109	56.9
110	56.7
112	56.7
113	56.8
115	57.3
117	57.5
118	57.2
120	56.5
122	56.2
124	56.3
125	56.3
127	56.1
129	55.7
131	55.7
133	56
135	56.8
137	56.8
139	56
141	55.6
143	55.5
145	55.4
147	55.4
149	55.8
151	56
154	55.9
156	55.1
158	54.9
160	54.7
163	54.8
165	54.8
168	54.7
170	54.7
172	54.8
175	54.7
177	54.5
180	54.2
183	53.9
185	53.7
188	53.8
191	54.1
194	54.3
196	53.9
199	53.9
202	54.2
205	53.9
208	53.6
211	53.8
214	54
217	53.4
220	53.1
224	53
227	53.3
230	53.3
234	53.3
237	53.3
240	53.4
244	53.4
247	53.5
251	53.4
255	53.5
258	53.1
262	53.5
266	54
270	54.3
274	54.6
278	54.6
282	54.5
286	54.2
290	54.3
294	54.2
298	54.1
303	54.2
307	53.9
312	53.5
316	53.5
321	53.4
325	53.5
330	53.4
335	53.2
340	52.9
345	52.8
350	52.9
355	52.9
360	52.9
365	52.8
371	52.6
376	52.5
382	52.4
387	52.6
393	52.8
398	53
404	53
410	53
416	53.8
422	54
428	54.2
434	54.2
441	54.1
447	54.1
454	54.2
460	54
467	53.4
474	53.6
481	53.6
488	53.3
495	53.2
502	53.4
509	53.6
517	53.5
524	53.3
532	53.4
540	53.5
547	53.5
555	53.8
563	53.6
572	53.4
580	53.6
588	53.4
597	53.5
606	53.5
614	53.6
623	53.7
632	53.6
642	53.7
651	54
660	54.1
670	54.1
680	54
690	54
700	54.4
710	54.6
720	54.7
731	54.8
741	55.3
752	55.6
763	55.6
774	55.6
785	55.9
797	56
808	55.8
820	56
832	56.1
844	56.5
856	56.9
869	57.1
882	57.2
894	57.2
907	57.4
921	57.4
934	57.7
948	58
961	58.2
975	58.2
990	58.8
1004	59.1
1019	59.4
1033	59.5
1048	59.8
1064	59.8
1079	60
1095	60.2
1111	60.3
1127	60.3
1143	60.5
1160	60.5
1177	60.5
1194	60.5
1211	60.4
1229	60.4
1247	60.3
1265	60
1283	59.9
1302	59.8
1321	59.7
1340	59.6
1360	59.5
1379	59.3
1399	59.2
1420	59
1440	58.8
1461	58.7
1483	58.7
1504	58.5
1526	58.5
1548	58.4
1571	58.3
1594	58.3
1617	58.3
1640	58.1
1664	57.9
1688	57.8
1

File: KZ EDX
FFT	AudioTools 	v16.1.4 iPad battery 100%	07/01/2023, 12:34	USB-C to 3.5mm Headphone Jack Adapter L Mic Low Range	3E413E14-4E3E-409A-A5B7-705B65920E1E
Frequency	dB	Unweighted
19.5	45.5
20.1	45.8
20.6	46
21.2	46.3
21.9	46.5
22.5	46.8
23.2	47
23.8	47.3
24.5	47.6
25.3	47.9
26	48.2
26.8	48.4
27.5	48.5
28.4	48.5
29.2	48.7
30	48.9
30.9	49.1
31.8	49.1
32.8	49.1
33.7	49.1
34.7	49.2
35.7	49.3
36.8	49.3
37.9	49.4
39	49.6
40.1	49.7
41.3	49.5
42.5	49.6
43.7	49.7
45	49.6
46.3	49.4
47.7	49.6
49.1	49.4
50.5	49.3
52	49.4
53.5	49.3
55.1	49.2
56.7	49.4
58.4	49.6
60.1	49.6
61.8	49.3
63.7	49.1
65.5	49.2
67.4	49.2
69.4	49.4
71.5	49.3
73.5	49.1
75.7	48.8
77.9	48.7
80.2	48.7
82.6	48.5
85	48.4
87.5	48.7
90	48.9
92.7	48.6
95.4	48.5
98.2	48.4
101	48.3
104	48.3
107	48.4
110	48
113	47.8
117	47.8
120	47.8
124	47.6
127	47.4
131	47.2
135	47.2
139	46.8
143	46.7
147	46.4
151	46.3
156	45.9
160	45.8
165	45.4
170	45.1
175	45
180	44.6
185	44.6
191	44.5
196	44.2
202	44
208	43.6
214	43.6
220	43.1
227	42.9
234	42.9
240	42.8
247	43.2
255	43.1
262	43.3
270	43.4
278	43.4
286	43.2
294	42.9
303	42.6
312	42.1
321	41.9
330	41.7
340	41.3
350	41
360	40.9
371	40.7
382	40.4
393	40.6
404	40.4
416	41.2
428	41.3
441	41.3
454	41.3
467	40.7
481	40.5
495	40.4
509	40.5
524	40.3
540	40.1
555	40
572	39.8
588	39.6
606	39.5
623	39.5
642	39.3
660	39.3
680	39.2
700	39.3
720	39.3
741	39.5
763	39.5
785	39.3
808	39.3
832	39.3
856	39.4
882	39.3
907	39.3
934	39.6
961	39.7
990	40.2
1019	40.5
1048	40.8
1079	41
1111	41.1
1143	41.4
1177	41.3
1211	41.5
1247	41.6
1283	41.9
1321	42.2
1360	42.5
1399	43
1440	43.5
1483	44.1
1526	44.6
1571	45
1617	45.8
1664	46.3
1713	46.9
1763	47
1815	47.9
1868	48.4
1923	49.2
1979	49.8
2037	50.7
2097	51.3
2158	51.9
2221	52.1
2287	52.2
2354	52
2423	51.6
2494	51
2567	50.5
2642	50
2719	49.4
2799	49
2881	48.7
2965	48.6
3052	48.4
3142	48.5
3234	48.5
3328	48.5
3426	48.4
3526	48.7
3630	48.9
3736	49
3846	49.3
3958	49.8
4074	50.7
4194	51.5
4316	53.1
4443	55.4
4573	57.4
4707	59.4
4845	59.5
4987	59.2
5133	58.6
5284	57.6
5438	57.6
5598	57.5
5762	57.7
5931	55.8
6104	56.2
6283	53.3
6467	50
6657	46.3
6852	43.4
7053	41.4
7259	39.8
7472	38.2
7691	37.1
7916	36.8
8148	36.8
8387	37.7
8633	38.9
8886	40.8
9146	43
9414	47.6
9690	50.4
9974	45.4
10266	41.8
10567	39.8
10877	38.4
11196	37.9
11524	38.5
11861	39.7
12209	44.6
12567	45.7
12935	41.1
13314	38.2
13704	36.3
14105	36.5
14519	40.3
14944	42.7
15382	36.4
15833	29.7
16297	26.9
16774	26.7
17266	28
17772	33.3
18293	33.4
18829	27.9
19380	25.7
20000	24.9
overall dB	72.2 dB
decay	Average
averaging	1/24 Octave
source	USB-C to 3.5mm Headphone Jack Adapter L Mic Low Range
latitude	52
longitude	4.358
saved	07/01/2023, 12:34
peak	30.8Hz